File: ESO205/labs/module 1/xrd data.asc
10.01167	3013
10.07732	3113
10.14297	3113
10.20862	3139
10.27427	3157
10.33992	2996
10.40557	3069
10.47123	3109
10.53688	3080
10.60253	3116
10.66818	3064
10.73383	3079
10.79948	3132
10.86513	3102
10.93078	3130
10.99644	3242
11.06209	3179
11.12774	3252
11.19339	3305
11.25904	3077
11.32469	3203
11.39034	3263
11.456	3296
11.52165	3206
11.5873	3313
11.65295	3171
11.7186	3161
11.78425	3282
11.8499	3307
11.91556	3292
11.98121	3238
12.04686	3284
12.11251	3162
12.17816	3295
12.24381	3238
12.30946	3198
12.37512	3167
12.44077	3253
12.50642	3135
12.57207	3169
12.63772	3069
12.70337	3103
12.76902	2950
12.83468	2942
12.90033	3056
12.96598	3060
13.03163	3040
13.09728	2926
13.16293	3029
13.22858	2928
13.29424	2866
13.35989	2850
13.42554	2749
13.49119	2785
13.55684	2644
13.62249	2806
13.68814	2814
13.7538	2635
13.81945	2675
13.8851	2576
13.95075	2640
14.0164	2654
14.08205	2627
14.1477	2608
14.21336	2550
14.27901	2590
14.34466	2409
14.41031	2463
14.47596	2389
14.54161	2355
14.60726	2343
14.67292	2362
14.73857	2349
14.80422	2362
14.86987	2261
14.93552	2334
15.00117	2272
15.06682	2237
15.13248	2189
15.19813	2097
15.26378	2265
15.32943	2205
15.39508	2200
15.46073	2138
15.52638	2258
15.59204	2120
15.65769	2051
15.72334	2171
15.78899	2113
15.85464	2227
15.92029	2158
15.98594	2045
16.0516	2067
16.11725	2084
16.1829	2064
16.24855	2031
16.3142	2058
16.37985	1997
16.4455	2002
16.51116	2014
16.57681	2032
16.64246	2028
16.70811	2107
16.77376	2069
16.83941	2013
16.90506	1950
16.97071	2003
17.03637	1916
17.10202	2020
17.16767	1957
17.23332	2002
17.29897	1972
17.36462	2094
17.43027	2069
17.49593	1959
17.56158	1984
17.62723	1895
17.69288	2056
17.75853	1914
17.82418	1992
17.88983	2043
17.95549	1987
18.02114	1906
18.08679	1911
18.15244	1932
18.21809	1912
18.28374	1987
18.34939	1944
18.41505	1956
18.4807	1825
18.54635	1840
18.612	1889
18.67765	1976
18.7433	1898
18.80895	1975
18.87461	1910
18.94026	1968
19.00591	1921
19.07156	2033
19.13721	1913
19.20286	1964
19.26851	1857
19.33417	1847
19.39982	1881
19.46547	1867
19.53112	1877
19.59677	1942
19.66242	1898
19.72807	1916
19.79373	1972
19.85938	1823
19.92503	1880
19.99068	1854
20.05633	1891
20.12198	2041
20.18763	1898
20.25329	1992
20.31894	1897
20.38459	1875
20.45024	1934
20.51589	1971
20.58154	1919
20.64719	1934
20.71285	1984
20.7785	1988
20.84415	1968
20.9098	1963
20.97545	1924
21.0411	1883
21.10675	1932
21.17241	1956
21.23806	1957
21.30371	1876
21.36936	1868
21.43501	1870
21.50066	1986
21.56631	1842
21.63197	1772
21.69762	1873
21.76327	1851
21.82892	1856
21.89457	1901
21.96022	1888
22.02587	1885
22.09153	1826
22.15718	1788
22.22283	1864
22.28848	1929
22.35413	1920
22.41978	1853
22.48543	1873
22.55109	1912
22.61674	1933
22.68239	1978
22.74804	1962
22.81369	1935
22.87934	1919
22.94499	1934
23.01064	1878
23.0763	1925
23.14195	1893
23.2076	1802
23.27325	1979
23.3389	1972
23.40455	1821
23.4702	1894
23.53586	1881
23.60151	1927
23.66716	1918
23.73281	1881
23.79846	1971
23.86411	1929
23.92976	1875
23.99542	1912
24.06107	1865
24.12672	1883
24.19237	1928
24.25802	1859
24.32367	1900
24.38932	1944
24.45498	1832
24.52063	1860
24.58628	1876
24.65193	1948
24.71758	1800
24.78323	1895
24.84888	1850
24.91454	1956
24.98019	1853
25.04584	1960
25.11149	1941
25.17714	1856
25.24279	1837
25.30844	1838
25.3741	1793
25.43975	1906
25.5054	1839
25.57105	1834
25.6367	1899
25.70235	1905
25.768	1854
25.83366	1861
25.89931	1889
25.96496	1880
26.03061	1891
26.09626	1809
26.16191	1914
26.22756	1773
26.29322	1878
26.35887	1823
26.42452	1840
26.49017	1895
26.55582	1808
26.62147	1820
26.68712	1733
26.75278	1862
26.81843	1833
26.88408	1911
26.94973	1809
27.01538	1799
27.08103	1788
27.14668	1839
27.21234	1753
27.27799	1789
27.34364	1740
27.40929	1808
27.47494	1765
27.54059	1846
27.60624	1825
27.6719	1813
27.73755	1832
27.8032	1846
27.86885	1776
27.9345	1819
28.00015	1839
28.0658	1843
28.13146	1815
28.19711	1821
28.26276	1759
28.32841	1795
28.39406	1743
28.45971	1738
28.52536	1690
28.59102	1810
28.65667	1748
28.72232	1807
28.78797	1875
28.85362	1710
28.91927	1818
28.98492	1780
29.05058	1798
29.11623	1831
29.18188	1758
29.24753	1762
29.31318	1835
29.37883	1785
29.44448	1732
29.51013	1777
29.57579	1803
29.64144	1799
29.70709	1774
29.77274	1818
29.83839	1827
29.90404	1707
29.96969	1807
30.03535	1777
30.101	1724
30.16665	1755
30.2323	1722
30.29795	1763
30.3636	1759
30.42925	1683
30.49491	1682
30.56056	1760
30.62621	1835
30.69186	1716
30.75751	1679
30.82316	1707
30.88881	1815
30.95447	1747
31.02012	1693
31.08577	1831
31.15142	1818
31.21707	1798
31.28272	1703
31.34837	1671
31.41403	1724
31.47968	1689
31.54533	1713
31.61098	1731
31.67663	1785
31.74228	1700
31.80793	1688
31.87359	1738
31.93924	1749
32.00489	1619
32.07054	1721
32.13619	1729
32.20184	1703
32.26749	1720
32.33315	1676
32.3988	1790
32.46445	1638
32.5301	1638
32.59575	1642
32.6614	1692
32.72705	1698
32.79271	1695
32.85836	1679
32.92401	1670
32.98966	1694
33.05531	1723
33.12096	1694
33.18661	1804
33.25227	1653
33.31792	1679
33.38357	1721
33.44922	1755
33.51487	1739
33.58052	1676
33.64617	1632
33.71183	1671
33.77748	1686
33.84313	1610
33.90878	1669
33.97443	1660
34.04008	1633
34.10573	1671
34.17139	1669
34.23704	1607
34.30269	1660
34.36834	1569
34.43399	1622
34.49964	1591
34.56529	1707
34.63095	1653
34.6966	1606
34.76225	1658
34.8279	1653
34.89355	1670
34.9592	1609
35.02485	1675
35.09051	1732
35.15616	1643
35.22181	1696
35.28746	1666
35.35311	1654
35.41876	1588
35.48441	1609
35.55006	1581
35.61572	1676
35.68137	1668
35.74702	1585
35.81267	1710
35.87832	1585
35.94397	1656
36.00962	1621
36.07528	1656
36.14093	1646
36.20658	1621
36.27223	1617
36.33788	1621
36.40353	1570
36.46918	1574
36.53484	1545
36.60049	1607
36.66614	1619
36.73179	1636
36.79744	1565
36.86309	1674
36.92874	1636
36.9944	1504
37.06005	1628
37.1257	1618
37.19135	1607
37.257	1600
37.32265	1593
37.3883	1543
37.45396	1638
37.51961	1555
37.58526	1632
37.65091	1582
37.71656	1552
37.78221	1595
37.84786	1506
37.91352	1578
37.97917	1578
38.04482	1597
38.11047	1640
38.17612	1644
38.24177	1626
38.30742	1646
38.37308	1583
38.43873	1630
38.50438	1702
38.57003	1654
38.63568	1752
38.70133	1710
38.76698	1672
38.83264	1705
38.89829	1694
38.96394	1610
39.02959	1645
39.09524	1644
39.16089	1707
39.22654	1583
39.2922	1582
39.35785	1637
39.4235	1633
39.48915	1546
39.5548	1671
39.62045	1562
39.6861	1626
39.75176	1667
39.81741	1661
39.88306	1655
39.94871	1647
40.01436	1703
40.08001	1679
40.14566	1581
40.21132	1576
40.27697	1665
40.34262	1631
40.40827	1632
40.47392	1594
40.53957	1620
40.60522	1538
40.67088	1591
40.73653	1614
40.80218	1535
40.86783	1635
40.93348	1527
40.99913	1620
41.06478	1591
41.13044	1655
41.19609	1617
41.26174	1629
41.32739	1623
41.39304	1642
41.45869	1621
41.52434	1663
41.58999	1553
41.65565	1606
41.7213	1703
41.78695	1583
41.8526	1709
41.91825	1702
41.9839	1788
42.04955	1714
42.11521	1740
42.18086	1839
42.24651	1799
42.31216	1994
42.37781	1907
42.44346	1954
42.50911	2111
42.57477	2181
42.64042	2435
42.70607	2831
42.77172	3746
42.83737	5838
42.90302	10992
42.96867	30355
43.03433	49103
43.09998	38669
43.16563	27980
43.23128	12413
43.29693	6201
43.36258	4121
43.42823	3033
43.49389	2637
43.55954	2421
43.62519	2147
43.69084	2090
43.75649	1915
43.82214	1887
43.88779	1850
43.95345	1821
44.0191	1791
44.08475	1731
44.1504	1680
44.21605	1856
44.2817	1734
44.34735	1688
44.41301	1708
44.47866	1711
44.54431	1665
44.60996	1606
44.67561	1656
44.74126	1727
44.80691	1717
44.87257	1581
44.93822	1664
45.00387	1582
45.06952	1541
45.13517	1510
45.20082	1648
45.26647	1551
45.33213	1535
45.39778	1568
45.46343	1587
45.52908	1534
45.59473	1467
45.66038	1535
45.72603	1636
45.79169	1536
45.85734	1527
45.92299	1598
45.98864	1659
46.05429	1591
46.11994	1568
46.18559	1574
46.25125	1558
46.3169	1528
46.38255	1562
46.4482	1591
46.51385	1577
46.5795	1592
46.64515	1512
46.71081	1643
46.77646	1603
46.84211	1563
46.90776	1630
46.97341	1551
47.03906	1600
47.10471	1503
47.17037	1564
47.23602	1636
47.30167	1628
47.36732	1597
47.43297	1543
47.49862	1672
47.56427	1582
47.62993	1622
47.69558	1513
47.76123	1593
47.82688	1521
47.89253	1636
47.95818	1449
48.02383	1555
48.08948	1560
48.15514	1507
48.22079	1569
48.28644	1622
48.35209	1531
48.41774	1426
48.48339	1446
48.54904	1537
48.6147	1554
48.68035	1460
48.746	1600
48.81165	1615
48.8773	1656
48.94295	1608
49.0086	1565
49.07426	1569
49.13991	1760
49.20556	1608
49.27121	1754
49.33686	1748
49.40251	1735
49.46816	1822
49.53382	1878
49.59947	2105
49.66512	2284
49.73077	2796
49.79642	3281
49.86207	3917
49.92772	5095
49.99338	5875
50.05903	5964
50.12468	5471
50.19033	4451
50.25598	3516
50.32163	2855
50.38728	2428
50.45294	2226
50.51859	1946
50.58424	1797
50.64989	1772
50.71554	1662
50.78119	1668
50.84684	1619
50.9125	1671
50.97815	1718
51.0438	1594
51.10945	1501
51.1751	1631
51.24075	1516
51.3064	1508
51.37206	1562
51.43771	1543
51.50336	1521
51.56901	1561
51.63466	1456
51.70031	1691
51.76596	1546
51.83162	1576
51.89727	1453
51.96292	1564
52.02857	1550
52.09422	1485
52.15987	1497
52.22552	1632
52.29118	1557
52.35683	1550
52.42248	1534
52.48813	1529
52.55378	1626
52.61943	1544
52.68508	1449
52.75074	1479
52.81639	1563
52.88204	1512
52.94769	1516
53.01334	1436
53.07899	1395
53.14464	1415
53.2103	1465
53.27595	1422
53.3416	1377
53.40725	1456
53.4729	1483
53.53855	1461
53.6042	1440
53.66986	1470
53.73551	1434
53.80116	1522
53.86681	1465
53.93246	1487
53.99811	1501
54.06376	1513
54.12941	1487
54.19507	1428
54.26072	1545
54.32637	1396
54.39202	1443
54.45767	1434
54.52332	1459
54.58897	1528
54.65463	1506
54.72028	1414
54.78593	1466
54.85158	1441
54.91723	1470
54.98288	1530
55.04853	1479
55.11419	1476
55.17984	1411
55.24549	1486
55.31114	1465
55.37679	1453
55.44244	1459
55.50809	1502
55.57375	1441
55.6394	1490
55.70505	1376
55.7707	1477
55.83635	1459
55.902	1414
55.96765	1449
56.03331	1456
56.09896	1540
56.16461	1439
56.23026	1401
56.29591	1437
56.36156	1388
56.42721	1409
56.49287	1406
56.55852	1414
56.62417	1418
56.68982	1461
56.75547	1368
56.82112	1415
56.88677	1454
56.95243	1495
57.01808	1367
57.08373	1500
57.14938	1361
57.21503	1443
57.28068	1468
57.34633	1405
57.41199	1509
57.47764	1481
57.54329	1494
57.60894	1477
57.67459	1589
57.74024	1519
57.80589	1547
57.87155	1501
57.9372	1584
58.00285	1408
58.0685	1518
58.13415	1544
58.1998	1410
58.26545	1512
58.33111	1381
58.39676	1426
58.46241	1475
58.52806	1490
58.59371	1406
58.65936	1509
58.72501	1513
58.79067	1547
58.85632	1447
58.92197	1547
58.98762	1491
59.05327	1456
59.11892	1392
59.18457	1546
59.25023	1527
59.31588	1469
59.38153	1490
59.44718	1485
59.51283	1498
59.57848	1473
59.64413	1530
59.70979	1462
59.77544	1544
59.84109	1372
59.90674	1413
59.97239	1478
60.03804	1431
60.10369	1430
60.16934	1507
60.235	1439
60.30065	1483
60.3663	1580
60.43195	1417
60.4976	1489
60.56325	1438
60.6289	1378
60.69456	1396
60.76021	1398
60.82586	1422
60.89151	1450
60.95716	1310
61.02281	1512
61.08846	1496
61.15412	1470
61.21977	1403
61.28542	1482
61.35107	1431
61.41672	1470
61.48237	1452
61.54802	1412
61.61368	1486
61.67933	1421
61.74498	1451
61.81063	1445
61.87628	1451
61.94193	1366
62.00758	1520
62.07324	1482
62.13889	1427
62.20454	1437
62.27019	1341
62.33584	1431
62.40149	1464
62.46714	1513
62.5328	1429
62.59845	1445
62.6641	1543
62.72975	1490
62.7954	1418
62.86105	1463
62.9267	1479
62.99236	1501
63.05801	1472
63.12366	1512
63.18931	1431
63.25496	1384
63.32061	1484
63.38626	1450
63.45192	1493
63.51757	1423
63.58322	1493
63.64887	1467
63.71452	1493
63.78017	1422
63.84582	1434
63.91148	1395
63.97713	1473
64.04278	1376
64.10843	1387
64.17408	1442
64.23973	1479
64.30538	1435
64.37104	1426
64.43669	1445
64.50234	1460
64.56799	1466
64.63364	1488
64.69929	1575
64.76494	1518
64.8306	1484
64.89625	1536
64.9619	1511
65.02755	1442
65.0932	1353
65.15885	1505
65.2245	1471
65.29016	1530
65.35581	1497
65.42146	1514
65.48711	1466
65.55276	1520
65.61841	1480
65.68406	1508
65.74972	1560
65.81537	1502
65.88102	1505
65.94667	1405
66.01232	1516
66.07797	1520
66.14362	1541
66.20927	1449
66.27493	1546
66.34058	1500
66.40623	1453
66.47188	1484
66.53753	1510
66.60318	1593
66.66883	1432
66.73449	1527
66.80014	1504
66.86579	1472
66.93144	1457
66.99709	1450
67.06274	1503
67.12839	1475
67.19405	1486
67.2597	1500
67.32535	1514
67.391	1472
67.45665	1426
67.5223	1491
67.58795	1432
67.65361	1421
67.71926	1446
67.78491	1491
67.85056	1501
67.91621	1490
67.98186	1547
68.04751	1496
68.11317	1484
68.17882	1466
68.24447	1520
68.31012	1371
68.37577	1400
68.44142	1479
68.50707	1503
68.57273	1488
68.63838	1495
68.70403	1365
68.76968	1443
68.83533	1534
68.90098	1456
68.96663	1500
69.03229	1463
69.09794	1539
69.16359	1458
69.22924	1519
69.29489	1401
69.36054	1554
69.42619	1467
69.49185	1452
69.5575	1419
69.62315	1431
69.6888	1511
69.75445	1438
69.8201	1441
69.88575	1576
69.95141	1459
70.01706	1517
70.08271	1497
70.14836	1528
70.21401	1480
70.27966	1487
70.34531	1449
70.41097	1565
70.47662	1481
70.54227	1419
70.60792	1514
70.67357	1437
70.73922	1450
70.80487	1473
70.87053	1489
70.93618	1550
71.00183	1480
71.06748	1530
71.13313	1478
71.19878	1588
71.26443	1474
71.33009	1449
71.39574	1377
71.46139	1436
71.52704	1434
71.59269	1442
71.65834	1406
71.72399	1474
71.78965	1475
71.8553	1421
71.92095	1420
71.9866	1491
72.05225	1430
72.1179	1387
72.18355	1505
72.24921	1490
72.31486	1570
72.38051	1416
72.44616	1475
72.51181	1453
72.57746	1458
72.64311	1526
72.70876	1439
72.77442	1464
72.84007	1508
72.90572	1540
72.97137	1505
73.03702	1537
73.10267	1492
73.16832	1616
73.23398	1693
73.29963	1751
73.36528	1865
73.43093	1983
73.49658	2149
73.56223	2775
73.62788	3500
73.69354	3832
73.75919	3719
73.82484	3360
73.89049	3403
73.95614	2850
74.02179	2355
74.08744	2051
74.1531	1932
74.21875	1673
74.2844	1765
74.35005	1659
74.4157	1562
74.48135	1506
74.547	1555
74.61266	1523
74.67831	1479
74.74396	1487
74.80961	1475
74.87526	1518
74.94091	1501
75.00656	1531
75.07222	1518
75.13787	1476
75.20352	1522
75.26917	1426
75.33482	1410
75.40047	1475
75.46612	1419
75.53178	1431
75.59743	1509
75.66308	1484
75.72873	1497
75.79438	1465
75.86003	1482
75.92568	1475
75.99134	1589
76.05699	1423
76.12264	1522
76.18829	1507
76.25394	1479
76.31959	1472
76.38524	1494
76.4509	1519
76.51655	1495
76.5822	1420
76.64785	1439
76.7135	1499
76.77915	1412
76.8448	1472
76.91046	1478
76.97611	1355
77.04176	1480
77.10741	1472
77.17306	1471
77.23871	1583
77.30436	1486
77.37002	1466
77.43567	1525
77.50132	1514
77.56697	1457
77.63262	1407
77.69827	1466
77.76392	1495
77.82958	1462
77.89523	1440
77.96088	1464
78.02653	1492
78.09218	1484
78.15783	1493
78.22348	1417
78.28914	1452
78.35479	1425
78.42044	1475
78.48609	1524
78.55174	1563
78.61739	1511
78.68304	1523
78.74869	1502
78.81435	1554
78.88	1471
78.94565	1573
79.0113	1495
79.07695	1604
79.1426	1523
79.20825	1449
79.27391	1602
79.33956	1421
79.40521	1521
79.47086	1510
79.53651	1455
79.60216	1518
79.66781	1500
79.73347	1432
79.79912	1576
79.86477	1481
79.93042	1504
79.99607	1536
80.06172	1589
80.12737	1615
80.19303	1508
80.25868	1544
80.32433	1564
80.38998	1592
80.45563	1509
80.52128	1545
80.58693	1588
80.65259	1604
80.71824	1579
80.78389	1554
80.84954	1539
80.91519	1583
80.98084	1562
81.04649	1498
81.11215	1590
81.1778	1533
81.24345	1546
81.3091	1474
81.37475	1607
81.4404	1550
81.50605	1465
81.57171	1502
81.63736	1436
81.70301	1474
81.76866	1586
81.83431	1411
81.89996	1491
81.96561	1479
82.03127	1512
82.09692	1515
82.16257	1533
82.22822	1569
82.29387	1500
82.35952	1549
82.42517	1499
82.49083	1495
82.55648	1521
82.62213	1505
82.68778	1494
82.75343	1510
82.81908	1459
82.88473	1555
82.95039	1456
83.01604	1533
83.08169	1520
83.14734	1509
83.21299	1556
83.27864	1453
83.34429	1519
83.40995	1530
83.4756	1570
83.54125	1485
83.6069	1499
83.67255	1515
83.7382	1545
83.80385	1591
83.86951	1598
83.93516	1475
84.00081	1556
84.06646	1458
84.13211	1579
84.19776	1582
84.26341	1519
84.32907	1557
84.39472	1508
84.46037	1495
84.52602	1567
84.59167	1575
84.65732	1535
84.72297	1472
84.78862	1527
84.85428	1530
84.91993	1504
84.98558	1494
85.05123	1532
85.11688	1474
85.18253	1571
85.24818	1572
85.31384	1545
85.37949	1465
85.44514	1555
85.51079	1584
85.57644	1548
85.64209	1585
85.70774	1511
85.7734	1572
85.83905	1521
85.9047	1659
85.97035	1559
86.036	1627
86.10165	1533
86.1673	1551
86.23296	1528
86.29861	1556
86.36426	1757
86.42991	1615
86.49556	1518
86.56121	1483
86.62686	1600
86.69252	1499
86.75817	1624
86.82382	1519
86.88947	1502
86.95512	1434
87.02077	1558
87.08642	1549
87.15208	1576
87.21773	1509
87.28338	1614
87.34903	1644
87.41468	1685
87.48033	1529
87.54598	1645
87.61164	1607
87.67729	1576
87.74294	1579
87.80859	1607
87.87424	1651
87.93989	1611
88.00554	1644
88.0712	1608
88.13685	1656
88.2025	1635
88.26815	1701
88.3338	1685
88.39945	1662
88.4651	1723
88.53076	1685
88.59641	1725
88.66206	1794
88.72771	1700
88.79336	1738
88.85901	1795
88.92466	1984
88.99032	1944
89.05597	1961
89.12162	2243
89.18727	2447
89.25292	2800
89.31857	2904
89.38422	2928
89.44988	2908
89.51553	2685
89.58118	2581
89.64683	2475
89.71248	2335
89.77813	2083
89.84378	1960
89.90944	1840
89.97509	1770
90.04074	1761
90.10639	1722
90.17204	1641
90.23769	1607
90.30334	1679
90.369	1597
90.43465	1576
90.5003	1672
90.56595	1609
90.6316	1566
90.69725	1637
90.7629	1545
90.82856	1636
90.89421	1554
90.95986	1552
91.02551	1585
91.09116	1615
91.15681	1540
91.22246	1485
91.28811	1553
91.35377	1587
91.41942	1559
91.48507	1516
91.55072	1653
91.61637	1587
91.68202	1535
91.74767	1526
91.81333	1611
91.87898	1484
91.94463	1608
92.01028	1555
92.07593	1599
92.14158	1499
92.20723	1544
92.27289	1601
92.33854	1574
92.40419	1567
92.46984	1492
92.53549	1567
92.60114	1551
92.66679	1581
92.73245	1587
92.7981	1583
92.86375	1623
92.9294	1554
92.99505	1589
93.0607	1610
93.12635	1585
93.19201	1572
93.25766	1524
93.32331	1643
93.38896	1592
93.45461	1592
93.52026	1567
93.58591	1627
93.65157	1708
93.71722	1618
93.78287	1678
93.84852	1641
93.91417	1715
93.97982	1682
94.04547	1675
94.11113	1711
94.17678	1783
94.24243	1982
94.30808	1981
94.37373	2369
94.43938	2760
94.50503	3510
94.57069	4423
94.63634	4940
94.70199	4646
94.76764	4168
94.83329	3780
94.89894	3970
94.96459	3669
95.03025	3228
95.0959	2717
95.16155	2315
95.2272	2087
95.29285	1849
95.3585	1797
95.42415	1695
95.48981	1784
95.55546	1636
95.62111	1716
95.68676	1618
95.75241	1600
95.81806	1635
95.88371	1550
95.94937	1631
96.01502	1663
96.08067	1663
96.14632	1631
96.21197	1730
96.27762	1640
96.34327	1630
96.40893	1745
96.47458	1710
96.54023	1701
96.60588	1657
96.67153	1600
96.73718	1601
96.80283	1516
96.86849	1627
96.93414	1631
96.99979	1590
97.06544	1599
97.13109	1669
97.19674	1589
97.26239	1597
97.32804	1577
97.3937	1579
97.45935	1618
97.525	1545
97.59065	1616
97.6563	1564
97.72195	1548
97.7876	1581
97.85326	1513
97.91891	1589
97.98456	1658
98.05021	1731
98.11586	1526
98.18151	1547
98.24716	1533
98.31282	1603
98.37847	1532
98.44412	1611
98.50977	1508
98.57542	1687
98.64107	1584
98.70672	1561
98.77238	1550
98.83803	1518
98.90368	1480
98.96933	1501
99.03498	1547
99.10063	1519
99.16628	1515
99.23194	1518
99.29759	1588
99.36324	1510
99.42889	1557
99.49454	1566
99.56019	1596
99.62584	1595
99.6915	1614
99.75715	1498
99.8228	1478
99.88845	1620
99.9541	1571
99.99349	1575